Folder: FYP

File: dataset_2(cleaned).csv
index,pos,block_num,PEDOT_spd,PEDOT_rt,Grid_rt,Electrode_dep_T,Electrode_anneal_T,Grid_anneal_T,Electrode_amb_dep_T,Electrode_dep_humidity,DD_S315,DD_PV416,DD_PGMEA,T_air_Grid,Grid_Dep_Humidity,Web_speed_Grid,Web_speed_Active,Flow0_Active,Flow1_Active,Flow2_Active,Active_layer_Head_T,Active_layer_annealing_T,Active_layer2_annealing_T,Active_amb_dep_T,Active_humid,DD_DCB,DD_Y6,DD_PD10,Web_speed_ETL,Flow0_ETL,T_heater1_ETL,T_heater2_ETL,T_air_ETL,Humidity_ETL,DD_IPA,DD_ZnO,TDD of active,Donor fraction,voc,jsc,ff,pce
0,5,1,600,200,0.3,59.99,139.99,130,24.54,49.75,6666.67,3000,2000,24.54,49.75,600,300,40,0,0,74.81,32.58,130,24.6,47.69,1333.33,16,10.6667,300,15,129.98,130.01,26.59,42.3,500,14,26.6667,0.4,0,-7.15095,0,0.3858
302,1655,8,600,200,0.3,60.0283,140.02,130,24.6283,49.51,6666.67,3000,2000,24.6283,49.51,600,300,40,0,0,91.35,129.998,130.013,24.5783,47.52,1333.33,16,10.6667,300,15,129.98,129.995,26.27,42.68,500,14,26.6667,0.4,0.72659,-17.1438,62.0976,7.7352
604,3325,16,600,200,0.3,60.0067,140.003,129.992,24.65,49.225,6666.67,3000,2000,24.65,49.225,600,300,57.2857,0,0,94.145,130.013,129.99,24.55,47.7533,1909.52,22.9143,15.2762,300,15,129.99,130.008,25.9,43.3817,500,14,38.1905,0.4,0.707201,-18.0046,60.0065,7.64056
906,4975,23,600,200,0.3,59.935,139.965,130.002,24.63,49.15,6666.67,3000,2000,24.63,49.15,600,300,29,0,0,92.65,130.055,129.975,24.62,48.5083,966.667,11.6,7.73333,300,15,129.972,129.98,25.5217,44.0433,500,14,19.3333,0.4,0.687639,-16.2481,48.4804,5.41662
1208,6645,31,600,200,0.3,60,140,130.027,24.6,49.035,6666.67,3000,2000,24.6,49.035,600,300,68.22,7.58,0,91.15,130.01,130.015,24.66,48.5,2526.67,31.078,19.4553,300,15,130,130.02,25.205,44.97,500,14,50.5333,0.385,0.72231,-16.4884,65.0682,7.74945
1510,8295,38,600,200,0.3,59.99,140.025,129.99,24.605,49.05,6666.67,3000,2000,24.605,49.05,600,300,42.7629,4.75143,0,90.02,130.005,130.055,24.525,48.735,1583.81,19.4809,12.1953,300,15,130.02,129.995,25.08,45.855,500,14,31.6762,0.385,0.713605,-15.9006,60.4153,6.85517
1812,9965,46,600,200,0.3,59.9733,139.983,130.01,24.62,48.69,6666.67,3000,2000,24.62,48.69,600,300,16.9971,1.88857,0,93.255,130.017,129.975,24.5683,48.52,629.524,7.74314,4.84733,300,15,129.947,129.99,24.9183,46.2133,500,14,12.5905,0.385,0.739466,-13.3925,62.3725,6.17694
2114,11615,53,600,200,0.3,60.025,140.022,129.99,24.6983,48.77,6666.67,3000,2000,24.6983,48.77,600,300,52.8229,13.2057,0,94.2233,130.002,129.945,24.48,48.66,2200.95,27.732,16.287,300,15,130.03,130.01,24.745,46.7083,500,14,44.019,0.37,0.707807,-19.423,47.6421,6.5497
2416,13285,61,600,200,0.3,60.0117,140.013,129.982,24.6617,49.41,6666.67,3000,2000,24.6617,49.41,600,300,29.92,7.48,0,92.81,129.99,129.988,24.45,48.6,1246.67,15.708,9.22533,300,15,129.98,129.998,24.58,46.9,500,14,24.9333,0.37,0.726954,-16.743,63.762,7.76072
2718,14935,68,600,200,0.3,60.01,139.985,129.973,24.8,49.0767,6666.67,3000,2000,24.8,49.0767,600,300,7.29143,1.82286,0,91.1,130.012,130.045,24.48,49.245,303.81,3.828,2.24819,300,15,129.982,130,24.51,47.1967,500,14,6.07619,0.37,0.198198,-10.7203,26.3553,0.559984
3023,16620,76,600,200,0.3,60.01,139.98,129.997,24.77,48.94,6666.67,3000,2000,24.77,48.94,600,300,33.3943,22.2629,0,89.92,129.98,130.04,24.48,49.59,1855.24,24.4891,12.6156,300,15,130,130.017,24.46,47.03,500,14,37.1048,0.34,0.707033,-18.808,53.7291,7.14483
3325,18290,84,600,200,0.3,60.0033,139.947,130.02,24.75,48.01,6666.67,3000,2000,24.75,48.01,600,300,16.2171,10.8114,0,92.2067,129.993,129.987,24.51,49.35,900.952,11.8926,6.12648,300,15,130.017,129.99,24.26,47.21,500,14,18.019,0.34,0.263148,-13.441,26.4741,0.936387
3627,19940,91,600,200,0.3,60.0033,140.013,130.01,24.68,48.17,6666.67,3000,2000,24.68,48.17,600,300,29.6686,44.5029,0,91.6067,129.967,130.053,24.49,49.01,2472.38,34.1189,15.3288,300,15,129.977,130.06,24.13,47.77,500,14,49.4476,0.31,0.67292,-16.395,39.9567,4.40824
3929,21610,99,600,200,0.3,60.0033,140.023,130.007,24.6,48.35,6666.67,3000,2000,24.6,48.35,600,300,18.2171,27.3257,0,91.9767,130.003,130.03,24.41,49.08,1518.1,20.9497,9.41219,300,15,129.987,130.003,24.0867,48.08,500,14,30.3619,0.31,0.703759,-16.6059,61.1503,7.14637
4232,23265,106,600,200,0.3,59.98,139.98,129.99,24.55,48.565,6666.67,3000,2000,24.55,48.565,600,300,6.86857,10.3029,0,89.8,130.03,130.035,24.37,49.145,572.381,7.89886,3.54876,300,15,130.01,129.99,24.015,48.55,500,14,11.4476,0.31,0.737136,-11.7549,59.9752,5.19683
4534,24935,114,600,200,0.3,60.0183,139.998,129.995,24.5283,48.52,6666.67,3000,2000,24.5283,48.52,600,300,12.7943,51.1771,0,90.4717,130.02,129.98,24.3783,48.99,2132.38,30.7063,11.9413,300,15,129.975,130.04,23.93,48.98,500,14,42.6476,0.28,0.670568,-16.8398,43.8485,4.95148
4836,26585,121,600,200,0.3,60.02,140.012,129.995,24.49,49.02,6666.67,3000,2000,24.49,49.02,600,300,7.13714,28.5486,0,92.135,129.99,129.998,24.3617,49.19,1189.52,17.1291,6.66133,300,15,129.995,129.99,23.88,49.34,500,14,23.7905,0.28,0.711354,-16.2172,56.5696,6.52597
5138,28255,129,600,200,0.3,60.015,140.002,130.002,24.49,49.225,6666.67,3000,2000,24.49,49.225,600,300,1.6,26.64,0,92.2217,130.008,129.935,24.49,49.6233,941.333,13.96,4.86667,300,15,129.997,130.02,23.83,49.38,500,14,18.8267,0.258499,0.742857,-10.719,60.7844,4.8401
5441,29930,137,600,200,0.3,60.0267,140.02,130,24.4533,49.55,6666.67,3000,2000,24.4533,49.55,600,300,0,53.7714,0,91.7667,129.98,129.95,24.45,49.72,1792.38,26.8857,8.9619,300,15,130.003,130.01,23.9933,49.28,500,14,35.8476,0.25,0.675092,-16.8363,47.2833,5.37426
5743,31580,144,600,200,0.3,60,139.99,130,24.4967,49.45,6666.67,3000,2000,24.4967,49.45,600,300,0,25.4857,0,90.3833,129.99,129.993,24.37,49.75,849.524,12.7429,4.24762,300,15,129.987,130.01,24.0767,48.91,500,14,16.9905,0.25,0.694241,-13.1698,53.9896,4.93626
6045,33250,152,600,200,0.3,59.99,140.063,129.987,24.5333,48.95,6666.67,3000,2000,24.5333,48.95,600,300,4.28571,35.7143,0,91.96,129.99,129.927,24.3767,49.72,1333.33,19.5714,7.09524,300,15,129.97,130.057,24.0733,48.87,500,14,26.6667,0.266071,0.709768,-13.0283,64.9368,6.00476
6347,34900,159,600,200,0.3,59.9633,140,130.007,24.48,48.99,6666.67,3000,2000,24.48,48.99,600,300,20,20,0,91.3733,130,130.05,24.48,49.6667,1333.33,18,8.66667,300,15,129.997,129.97,24.07,48.8,500,14,26.6667,0.325,0.708615,-16.2918,55.26,6.37955
6649,36570,167,600,200,0.3,59.99,139.99,129.99,24.46,48.89,6666.67,3000,2000,24.46,48.89,600,300,35.9048,4.09524,0,89.96,130.01,130.06,24.52,49.51,1333.33,16.4095,10.2571,300,15,129.97,129.997,24.09,48.84,500,14,26.6667,0.384643,0.714317,-16.8994,62.689,7.5675
6951,38220,174,600,200,0.3,60.01,140,129.997,24.45,48.83,6666.67,3000,2000,24.45,48.83,600,300,53.1371,0,9.37714,91.02,129.95,130.03,24.5,49.54,2083.81,23.3491,18.3271,300,15,130.02,129.987,24.13,49.03,500,14,41.6762,0.43975,0.671205,-10.104,37.5376,2.54573
7253,39890,182,600,200,0.3,59.9933,140,129.99,24.4,48.96,6666.67,3000,2000,24.4,48.96,600,300,28.8029,0,5.08286,93.2233,129.987,129.997,24.5467,49.45,1129.52,12.6563,9.93416,300,15,130.003,129.96,24.17,49.5167,500,14,22.5905,0.43975,0.720436,-17.8864,51.3478,6.61667
7555,41540,189,600,200,0.3,60.0333,140.06,130.02,24.3933,48.85,6666.67,3000,2000,24.3933,48.85,600,300,41.24,0,17.16,89.8533,130.02,129.94,24.5167,49.51,1946.67,20.3284,18.6049,300,15,130.023,129.99,24.23,49.79,500,14,38.9333,0.477866,0.705481,-10.6839,49.1077,3.70138
7858,43215,197,600,200,0.3,59.99,140.025,129.987,24.42,49.32,6666.67,3000,2000,24.42,49.32,600,300,36.62,0,15.6943,90.755,130.01,130.025,24.55,49.465,1743.81,18.1531,16.7231,300,15,129.965,130.058,24.235,49.545,500,14,34.8762,0.4795,0.699505,-16.2705,44.4688,5.06111
8161,44890,205,600,200,0.3,60.0167,140.01,130.007,24.6433,48.7967,6666.67,3000,2000,24.6433,48.7967,600,300,16.52,0,7.08,91.7667,130.003,129.963,24.53,49.61,786.667,8.1892,7.54413,300,15,129.97,130.04,24.18,49.47,500,14,15.7333,0.4795,0.714121,-14.245,40.9276,4.16341
8464,46545,212,600,200,0.3,59.93,140.04,130,24.79,48.08,6666.67,3000,2000,24.79,48.08,600,300,35.3286,0,35.3286,90.14,130.03,129.995,24.525,49.595,2355.24,22.0215,25.0833,300,15,129.97,129.99,24.18,49.29,500,14,47.1048,0.5325,0.716312,-9.9734,39.5559,2.825898
8766,48215,220,600,200,0.3,60.0033,140.008,129.975,24.82,48.405,6666.67,3000,2000,24.82,48.405,600,300,21.0143,0,21.0143,89.855,130.017,130.038,24.66,49.6467,1400.95,13.0989,14.9201,300,15,130.038,130.01,24.2217,48.9933,500,14,28.019,0.5325,0.727464,-10.2897,43.0536,3.22273
9068,49865,227,600,200,0.3,60.0183,139.927,129.97,24.9,47.995,6666.67,3000,2000,24.9,47.995,600,300,6.87143,0,6.87143,91.0933,129.993,129.968,24.61,50.31,458.095,4.28319,4.87871,300,15,129.978,130,24.22,49.03,500,14,9.1619,0.5325,0.666585,-9.28503,31.1759,1.92956
9371,51540,235,600,200,0.3,59.96,139.94,130.01,24.7,48.18,6666.67,3000,2000,24.7,48.18,600,300,15.1143,0,44.8,92.04,129.98,130.04,24.51,50.67,1997.14,16.051,23.8918,300,15,129.99,130.057,24.23,49.09,500,14,39.9429,0.59815,0.710668,-4.94525,40.8708,1.43638
9674,53195,242,600,200,0.3,59.9967,139.978,130.01,24.54,48.625,6666.67,3000,2000,24.54,48.625,600,300,8.02143,0,22.7333,89.9267,129.983,130.055,24.61,50.1433,1025.16,8.28568,12.2175,300,15,129.992,130.005,24.18,49.33,500,14,20.5032,0.595883,0.7091,-4.81216,31.845,1.08665
9979,54880,250,600,200,0.3,59.9833,139.993,130.003,24.47,48.86,6666.67,3000,2000,24.47,48.86,600,300,0,0,78.6286,90.6033,130.003,130,24.6667,49.5567,2620.95,17.5604,34.8587,300,15,130.023,129.927,24.13,49.7,500,14,52.419,0.665,0,-4.93995,0,0.415017
10317,56730,258,600,200,0.3,60.06,140,130.013,24.38,48.96,6666.67,3000,2000,24.38,48.96,600,300,0,0,46.9143,90.53,129.99,130.02,24.48,49.89,1563.81,10.4775,20.7987,300,15,130.01,129.893,24.18,49.59,500,14,31.2762,0.665,0,-1.3638,0,0.308784
10622,58415,266,600,200,0.3,59.9983,139.993,130.005,24.35,48.99,6666.67,3000,2000,24.35,48.99,600,300,0,0,18.0286,93.33,129.993,130.075,24.49,49.6983,600.952,4.02638,7.99267,300,15,130.03,129.91,24.17,49.435,500,14,12.019,0.665,0,-1.13608,0,0.163242
10985,60410,275,600,200,0.3,59.9767,140.007,129.99,24.37,48.86,6666.67,3000,2000,24.37,48.86,600,300,0,9.13208,30.8679,90.0367,130,129.997,24.54,49.31,1333.33,11.4599,15.2068,300,15,130.017,130.05,24.18,49.09,500,14,26.6667,0.570255,0,-1.10021,0,0.194152
11288,62085,283,600,200,0.3,60.025,140.005,130.012,24.42,48.6,6666.67,3000,2000,24.42,48.6,600,300,0,21.7736,18.2264,92.56,129.975,129.95,24.5,49.75,1333.33,14.9574,11.7093,300,15,130,130.003,24.19,48.57,500,14,26.6667,0.439099,0.729051,-10.6993,46.9954,3.66582
11592,63745,290,600,200,0.3,60.01,140.02,129.948,24.45,48.5417,6666.67,3000,2000,24.45,48.5417,600,300,0,34.3019,5.69811,90.86,130.007,130.032,24.58,49.84,1333.33,18.4235,8.24314,300,15,130.043,130.11,24.15,48.7,500,14,26.6667,0.309118,0.73985,-13.9061,63.4086,6.52373
11705,64370,293,600,200,0.3,59.9733,140.17,130.01,24.4833,48.51,6666.67,3000,2000,24.4833,48.51,600,300,0,39.0189,0.981132,90.3567,129.98,129.9,24.5333,50.1367,1333.33,19.7286,6.93811,300,15,130.007,130,24.1367,48.77,500,14,26.6667,0.260179,0.727594,-15.7119,66.5899,7.6125